# Output of JWST_backgrounds version 1.1.1
# background cache version 1.0

# for RA=260.699566666667, DEC=65.82265 On calendar day 172
# Columns: 
# - Wavelength [micron] 
# - Total background (MJy/sr)
# - In-field zodiacal light (MJy/sr)
# - In-field galactic light (MJy/sr)
# - Stray light (MJy/sr)
# - Thermal self-emission (MJy/sr)
0.500000    0.1346    0.1119    0.0025    0.0202    0.0000
0.600000    0.1883    0.1479    0.0035    0.0368    0.0000
0.700000    0.2095    0.1660    0.0043    0.0391    0.0000
0.800000    0.2177    0.1714    0.0051    0.0412    0.0000
0.900000    0.2161    0.1684    0.0056    0.0421    0.0000
1.000000    0.2284    0.1604    0.0060    0.0620    0.0000
1.100000    0.2160    0.1498    0.0063    0.0599    0.0000
1.200000    0.2025    0.1381    0.0067    0.0577    0.0000
1.300000    0.1924    0.1294    0.0070    0.0559    0.0000
1.400000    0.1856    0.1237    0.0074    0.0546    0.0000
1.500000    0.1788    0.1179    0.0077    0.0532    0.0000
1.600000    0.1720    0.1122    0.0080    0.0518    0.0000
1.700000    0.1654    0.1066    0.0082    0.0505    0.0000
1.800000    0.1534    0.1014    0.0084    0.0436    0.0000
1.900000    0.1475    0.0964    0.0086    0.0424    0.0000
2.000000    0.1418    0.0917    0.0088    0.0413    0.0000
2.100000    0.1372    0.0873    0.0089    0.0410    0.0000
2.200000    0.1328    0.0832    0.0090    0.0406    0.0000
2.300000    0.1275    0.0781    0.0091    0.0402    0.0000
2.400000    0.1226    0.0734    0.0093    0.0399    0.0000
2.500000    0.1180    0.0691    0.0094    0.0395    0.0000
2.600000    0.1139    0.0651    0.0095    0.0393    0.0000
2.700000    0.1100    0.0614    0.0096    0.0390    0.0000
2.800000    0.1065    0.0580    0.0097    0.0388    0.0000
2.900000    0.0914    0.0549    0.0097    0.0268    0.0000
3.000000    0.0883    0.0519    0.0098    0.0266    0.0000
3.100000    0.0851    0.0492    0.0099    0.0260    0.0000
3.200000    0.0834    0.0467    0.0108    0.0259    0.0000
3.300000    0.0858    0.0443    0.0144    0.0270    0.0000
3.400000    0.0769    0.0421    0.0101    0.0246    0.0000
3.500000    0.0931    0.0569    0.0101    0.0261    0.0000
3.700000    0.1048    0.0677    0.0102    0.0269    0.0000
4.000000    0.1404    0.1002    0.0105    0.0296    0.0000
4.250000    0.1850    0.1467    0.0106    0.0277    0.0000
4.500000    0.2591    0.2144    0.0109    0.0338    0.0000
4.750000    0.3581    0.3050    0.0112    0.0418    0.0000
5.000000    0.4821    0.4187    0.0117    0.0516    0.0000
5.100000    0.5508    0.4811    0.0119    0.0577    0.0001
5.200000    0.6264    0.5499    0.0120    0.0644    0.0001
5.300000    0.7144    0.6254    0.0159    0.0729    0.0001
5.400000    0.8010    0.7077    0.0132    0.0799    0.0002
5.500000    0.9011    0.7969    0.0148    0.0891    0.0002
5.700000    1.1344    0.9965    0.0254    0.1120    0.0004
5.900000    1.3845    1.2245    0.0253    0.1341    0.0007
6.100000    1.7000    1.4806    0.0534    0.1648    0.0011
6.300000    2.0942    1.7643    0.1140    0.2142    0.0017
6.500000    2.3582    2.0742    0.0569    0.2244    0.0027
6.700000    2.7193    2.4088    0.0511    0.2555    0.0040
6.900000    3.1246    2.7662    0.0587    0.2939    0.0058
7.100000    3.5514    3.1444    0.0647    0.3340    0.0083
7.300000    4.0258    3.5409    0.0897    0.3835    0.0117
7.500000    4.5617    3.9533    0.1456    0.4467    0.0162
7.700000    5.0861    4.3791    0.1807    0.5041    0.0221
7.900000    5.5321    4.8157    0.1490    0.5374    0.0299
8.100000    5.9748    5.2606    0.1066    0.5675    0.0401
8.300000    6.4721    5.7114    0.0965    0.6111    0.0531
8.500000    7.0051    6.1656    0.1065    0.6634    0.0697
8.700000    7.5212    6.6209    0.0999    0.7097    0.0907
8.900000    8.0017    7.0753    0.0646    0.7446    0.1172
9.100000    8.5222    7.5267    0.0552    0.7901    0.1502
9.300000    9.0532    7.9734    0.0511    0.8376    0.1912
9.500000    9.5910    8.4135    0.0498    0.8861    0.2415
9.700000    10.1354    8.8457    0.0538    0.9328    0.3031
9.900000    10.6849    9.2685    0.0563    0.9820    0.3780
10.100000    11.2293    9.6808    0.0542    1.0262    0.4682
10.300000    11.7771    10.0814    0.0525    1.0669    0.5764
10.500000    12.3442    10.4694    0.0594    1.1101    0.7053
10.700000    12.9183    10.8442    0.0648    1.1513    0.8580
10.900000    13.5114    11.2050    0.0752    1.1932    1.0380
11.100000    14.1635    11.5513    0.1171    1.2471    1.2480
11.300000    14.8622    11.8827    0.1786    1.3079    1.4930
11.500000    15.4596    12.1989    0.1535    1.3302    1.7770
11.700000    16.0424    12.4997    0.1007    1.3391    2.1030
11.900000    16.7251    12.7849    0.0955    1.3667    2.4780
12.100000    17.5074    13.1023    0.0997    1.3994    2.9060
12.300000    18.3929    13.4554    0.1056    1.4388    3.3930
12.500000    19.3283    13.7976    0.1101    1.4766    3.9440
12.700000    20.3212    14.1287    0.1137    1.5129    4.5660
12.900000    21.3591    14.4485    0.1042    1.5424    5.2640
13.100000    22.4585    14.7571    0.0869    1.5675    6.0470
13.300000    23.6485    15.0545    0.0787    1.5953    6.9200
13.500000    24.9372    15.3406    0.0790    1.6256    7.8920
13.700000    26.3156    15.6156    0.0758    1.6532    8.9710
13.900000    27.7977    15.8795    0.0696    1.6785    10.1700
14.100000    29.3987    16.1325    0.0705    1.7057    11.4900
14.300000    31.1134    16.3747    0.0683    1.7304    12.9400
14.500000    32.9655    16.6062    0.0655    1.7538    14.5400
14.700000    34.9542    16.8273    0.0614    1.7756    16.2900
14.900000    37.1055    17.0380    0.0600    1.7975    18.2100
15.100000    39.4268    17.2387    0.0594    1.8187    20.3100
15.300000    41.9250    17.4296    0.0572    1.8382    22.6000
15.500000    44.6353    17.6108    0.0640    1.8605    25.1000
16.500000    61.5926    18.3801    0.0675    1.9450    41.2000
17.500000    86.0628    18.9437    0.0710    2.0082    65.0400
18.500000    120.9381    19.3310    0.0742    2.0529    99.4800
19.500000    169.9295    19.5699    0.0776    2.0820    148.2000
20.500000    237.7644    19.6852    0.0812    2.0980    215.9000
21.500000    329.9868    19.6988    0.0847    2.1033    308.1000
22.500000    453.2176    19.6297    0.0882    2.0997    431.4000
23.500000    614.9744    19.4938    0.0917    2.0889    593.3000
24.500000    823.6723    19.3046    0.0954    2.0723    802.2000
25.500000    1088.0396    18.9060    0.0999    2.0337    1067.0000
26.500000    1418.3993    18.3185    0.1054    1.9754    1398.0000
27.500000    1825.7488    17.7220    0.1109    1.9159    1806.0000
28.500000    2318.0961    17.1234    0.1168    1.8560    2299.0000
29.500000    2908.4470    16.5280    0.1227    1.7963    2890.0000
30.500000    3604.8060    15.9400    0.1288    1.7372    3587.0000
31.000000    3915.4897    15.6498    0.1319    1.7080    3898.0000
